aX,aY,aZ,gX,gY,gZ
0.501,0.914,1.281,-239.746,90.881,8.545
0.484,0.955,1.299,-268.250,101.501,6.958
0.483,0.982,1.300,-296.387,117.737,-1.770
0.548,1.029,1.287,-318.787,139.771,-11.230
0.652,1.106,1.269,-337.341,162.598,-16.479
0.745,1.204,1.264,-358.887,181.152,-13.123
0.763,1.302,1.263,-386.414,192.993,-5.554
0.718,1.366,1.262,-421.814,201.233,-0.977
0.696,1.386,1.204,-462.646,215.027,-3.540
0.658,1.328,1.143,-502.502,231.689,-16.846
0.611,1.116,0.997,-536.194,249.695,-45.654
0.600,0.693,0.811,-556.458,271.179,-88.989
0.612,0.321,0.551,-557.739,291.382,-137.207
0.558,0.091,0.273,-536.865,300.964,-184.265
0.459,-0.005,0.020,-501.221,296.204,-229.431
0.346,-0.119,-0.175,-450.867,276.428,-270.630
0.232,-0.303,-0.316,-388.611,246.704,-299.377
0.263,-0.448,-0.581,-317.688,222.168,-293.518
0.407,-0.507,-0.908,-247.253,197.693,-242.615
0.608,-0.557,-1.152,-189.392,166.199,-161.377
0.825,-0.613,-1.326,-145.935,124.023,-68.848
1.015,-0.511,-1.409,-119.873,77.087,23.254
1.138,-0.324,-1.275,-105.225,27.954,100.647
1.130,-0.080,-1.066,-88.135,-7.568,157.410
1.042,0.146,-0.884,-67.810,-16.113,186.035
0.916,0.266,-0.728,-53.101,0.061,184.753
0.760,0.302,-0.619,-50.049,32.349,160.950
0.577,0.342,-0.578,-53.406,76.050,125.671
0.337,0.317,-0.493,-51.453,118.469,85.205
0.052,0.261,-0.374,-41.077,153.809,45.715
-0.193,0.247,-0.230,-21.423,182.983,18.005
-0.366,0.426,-0.100,2.441,201.355,6.104
-0.489,0.701,0.061,23.315,203.308,5.005
-0.576,0.928,0.194,36.438,189.453,7.751
-0.638,1.066,0.240,45.166,168.335,15.198
-0.675,1.127,0.226,48.279,145.325,27.466
-0.675,1.124,0.180,45.410,123.962,39.551
-0.619,1.107,0.139,41.016,105.103,45.410
-0.547,1.102,0.093,36.438,89.783,44.434
-0.508,1.079,0.064,30.884,78.613,40.710
-0.503,1.068,0.035,22.583,69.275,35.095
-0.510,1.089,-0.013,10.620,60.974,26.794
-0.532,1.079,-0.075,-2.197,54.565,14.404
-0.477,1.015,-0.141,-9.827,51.147,-2.502
-0.365,0.954,-0.200,-12.207,45.471,-19.043
-0.284,0.937,-0.235,-12.329,33.569,-28.870
-0.211,0.961,-0.262,-11.169,19.653,-30.884
-0.151,0.983,-0.278,-10.132,6.836,-27.588
-0.096,0.990,-0.299,-10.376,-2.625,-21.667
-0.051,1.001,-0.329,-11.597,-9.583,-15.991
-0.031,0.985,-0.360,-14.648,-14.954,-13.306
-0.019,0.940,-0.403,-17.944,-18.188,-13.733
0.001,0.885,-0.446,-19.592,-20.508,-15.137
0.022,0.835,-0.486,-20.874,-24.353,-15.442
0.042,0.797,-0.521,-22.339,-29.846,-14.160
0.059,0.764,-0.561,-22.949,-35.522,-11.353
0.073,0.720,-0.597,-22.034,-40.833,-9.033
0.099,0.667,-0.632,-20.142,-45.044,-6.653
0.115,0.626,-0.667,-17.944,-48.645,-4.272
0.115,0.587,-0.701,-16.602,-50.964,-3.174
0.131,0.564,-0.721,-16.663,-50.842,-3.601
0.144,0.575,-0.712,-17.944,-48.584,-5.371
0.151,0.600,-0.689,-19.775,-44.861,-8.911
0.158,0.642,-0.680,-20.813,-40.955,-14.526
0.145,0.641,-0.647,-22.888,-36.804,-19.958
0.150,0.649,-0.628,-26.794,-32.593,-24.841
0.150,0.658,-0.615,-29.419,-30.823,-28.259
0.146,0.656,-0.621,-31.799,-31.738,-29.114
0.158,0.634,-0.629,-33.264,-34.607,-27.344
0.182,0.615,-0.635,-34.485,-39.734,-22.888
0.212,0.601,-0.646,-34.302,-45.471,-17.090
0.237,0.597,-0.648,-32.715,-51.025,-11.169
0.283,0.597,-0.645,-30.762,-56.030,-5.432
0.297,0.622,-0.661,-30.396,-59.021,-2.319
0.396,0.617,-0.666,-30.090,-59.021,-0.183
0.375,0.603,-0.679,-29.785,-61.523,1.526
0.375,0.624,-0.680,-31.311,-56.335,-0.671
0.396,0.631,-0.674,-33.020,-49.866,-4.944
0.388,0.626,-0.668,-34.363,-45.105,-9.277
0.391,0.617,-0.669,-37.659,-44.189,-13.000
0.409,0.600,-0.691,-40.588,-45.837,-13.733
0.439,0.577,-0.716,-40.161,-47.974,-10.193
0.462,0.556,-0.736,-36.926,-49.438,-4.395
0.484,0.557,-0.740,-32.349,-49.744,1.465
0.479,0.577,-0.719,-28.931,-50.049,6.958
0.454,0.605,-0.680,-28.503,-52.124,9.888
0.430,0.624,-0.646,-31.433,-55.664,9.094
0.395,0.614,-0.642,-35.828,-59.875,5.005
0.415,0.585,-0.667,-38.879,-61.340,0.488
0.487,0.549,-0.711,-39.612,-60.303,-1.831
0.537,0.512,-0.752,-39.673,-59.692,-1.709
0.579,0.483,-0.784,-39.001,-57.922,-0.305
0.599,0.458,-0.793,-37.720,-54.932,1.953
0.585,0.455,-0.794,-36.255,-52.917,4.395
0.549,0.458,-0.783,-34.851,-52.917,6.165
0.505,0.466,-0.759,-34.424,-52.673,7.202
0.468,0.469,-0.744,-35.400,-51.575,6.226
0.446,0.454,-0.733,-37.109,-50.659,2.869
0.433,0.434,-0.723,-39.185,-50.537,-0.977
0.438,0.430,-0.725,-41.138,-51.514,-4.028
0.467,0.427,-0.750,-40.771,-51.331,-4.578
0.516,0.405,-0.787,-38.208,-49.438,-3.357
0.568,0.381,-0.801,-34.912,-46.814,-1.770
0.584,0.394,-0.808,-31.982,-43.396,0.305
0.566,0.401,-0.810,-29.419,-39.429,-0.305
0.541,0.387,-0.801,-26.733,-35.095,-3.479
0.504,0.381,-0.770,-24.231,-31.311,-8.118
0.463,0.408,-0.733,-23.804,-29.236,-12.695
0.452,0.437,-0.702,-25.024,-28.198,-16.968
0.452,0.452,-0.683,-27.283,-29.175,-20.142
0.466,0.438,-0.689,-30.151,-31.860,-21.973
0.521,0.408,-0.728,-30.945,-33.203,-20.996
0.583,0.375,-0.770,-28.748,-33.569,-16.052
0.615,0.361,-0.790,-25.146,-34.668,-9.277
0.622,0.362,-0.784,-21.240,-35.461,-3.540
0.611,0.382,-0.761,-18.066,-34.424,-0.122
0.575,0.412,-0.736,-16.235,-32.166,0.793
0.531,0.422,-0.699,-16.724,-29.663,-2.319
0.503,0.426,-0.676,-19.714,-26.306,-8.667
1.735,0.015,-0.905,-7.629,39.795,-22.522
1.941,-0.058,-0.979,-7.568,49.744,-30.029
2.153,-0.123,-1.053,-6.714,57.922,-31.677
2.375,-0.194,-1.122,-3.113,65.979,-24.536
2.549,-0.268,-1.193,1.709,74.890,-8.911
2.652,-0.361,-1.263,8.423,89.294,11.353
2.676,-0.493,-1.255,17.822,110.901,34.546
2.559,-0.600,-1.167,25.085,136.047,52.795
2.246,-0.611,-1.012,29.785,162.476,60.852
1.857,-0.552,-0.749,31.494,184.692,59.814
1.419,-0.490,-0.500,30.090,196.655,57.800
1.010,-0.424,-0.333,30.457,203.430,55.786
0.637,-0.324,-0.221,39.917,203.430,55.969
0.278,-0.239,-0.164,60.730,193.726,60.791
-0.026,-0.145,-0.153,86.975,180.847,64.697
-0.250,-0.016,-0.157,107.971,174.133,61.401
-0.387,0.101,-0.153,117.004,174.011,52.246
-0.472,0.246,-0.112,114.136,179.077,39.551
-0.612,0.418,-0.044,107.300,184.570,25.208
-0.778,0.541,-0.004,102.844,186.829,12.207
-0.935,0.603,0.019,100.647,181.641,1.953
-1.080,0.661,0.048,97.656,167.236,-4.272
-1.240,0.738,0.054,94.238,145.996,-6.104
-1.326,0.792,0.103,90.759,120.300,-5.676
-1.287,1.000,0.166,86.609,95.154,-4.028
-1.188,1.210,0.216,80.811,71.472,0.916
-1.046,1.266,0.207,71.960,49.927,4.517
-0.918,1.159,0.076,55.542,31.189,4.395
-0.785,0.959,-0.112,34.546,15.869,-0.977
-0.540,0.755,-0.274,18.433,6.714,-11.841
-0.392,0.631,-0.425,12.634,-0.671,-26.794
-0.043,0.580,-0.523,11.841,0.488,-39.551
0.316,0.518,-0.604,11.169,-3.601,-47.424
0.517,0.438,-0.726,11.230,-14.343,-53.223
0.698,0.350,-0.866,8.850,-21.484,-57.739
0.840,0.308,-1.000,8.057,-24.902,-55.359
0.879,0.321,-1.081,9.399,-28.137,-43.274
0.802,0.374,-1.066,9.888,-32.532,-28.564
0.679,0.463,-1.004,9.705,-34.607,-15.198
0.594,0.552,-0.946,9.583,-32.471,-5.554
0.540,0.610,-0.891,9.216,-29.236,-2.502
0.486,0.651,-0.854,7.324,-25.269,-3.357
0.440,0.666,-0.843,4.578,-20.386,-5.798
0.370,0.666,-0.846,1.343,-14.954,-7.507
0.527,0.637,-0.839,-1.465,-8.118,-5.066
0.407,0.589,-0.846,-2.747,-14.404,-1.587
0.376,0.584,-0.840,-4.333,-11.963,0.793
0.377,0.586,-0.852,-5.371,-3.845,3.723
0.406,0.528,-0.863,-2.258,2.686,9.277
0.392,0.473,-0.853,-0.549,5.615,12.024
0.367,0.482,-0.822,-0.305,5.920,11.108
0.345,0.521,-0.789,0.488,4.089,8.911
0.333,0.543,-0.769,1.160,2.014,8.545
0.316,0.544,-0.750,0.732,1.099,8.911
0.306,0.553,-0.730,-1.709,0.427,8.057
0.283,0.585,-0.714,-4.578,-0.244,6.348
0.255,0.583,-0.708,-6.653,-1.282,3.540
0.235,0.562,-0.705,-7.751,-2.319,1.160
0.213,0.552,-0.707,-9.644,-3.479,1.648
0.213,0.542,-0.708,-11.597,-5.737,2.075
0.222,0.531,-0.717,-12.695,-8.789,1.282
0.227,0.515,-0.727,-12.878,-11.841,0.610
0.260,0.497,-0.736,-12.695,-15.076,0.671
0.276,0.490,-0.746,-12.329,-18.982,2.747
0.284,0.500,-0.743,-12.512,-21.973,5.859
0.292,0.505,-0.735,-13.184,-23.682,7.385
0.301,0.503,-0.736,-14.038,-23.499,6.348
0.301,0.495,-0.753,-15.686,-21.667,3.357
0.297,0.464,-0.767,-17.395,-20.386,-1.099
0.300,0.442,-0.780,-19.104,-19.775,-4.089
0.298,0.434,-0.791,-19.653,-20.508,-4.883
0.297,0.430,-0.788,-19.104,-22.827,-4.211
0.312,0.438,-0.775,-18.311,-26.184,-2.808
0.337,0.445,-0.773,-16.907,-30.762,-1.038
0.366,0.438,-0.784,-14.893,-36.316,2.380
0.398,0.428,-0.792,-12.573,-41.626,7.874
0.426,0.426,-0.789,-10.559,-46.509,14.099
0.448,0.440,-0.777,-8.667,-50.781,19.165
0.441,0.462,-0.776,-8.911,-53.650,21.729
0.438,0.454,-0.786,-10.376,-53.894,18.982
0.453,0.437,-0.805,-11.536,-51.270,13.123
0.474,0.423,-0.827,-11.902,-46.509,7.690
0.482,0.409,-0.838,-11.658,-41.809,3.784
0.473,0.400,-0.830,-11.475,-39.001,2.197
0.457,0.413,-0.804,-11.658,-38.879,2.808
0.432,0.430,-0.774,-11.414,-41.199,4.395
0.417,0.434,-0.749,-10.254,-43.823,6.104
0.412,0.453,-0.723,-9.155,-45.349,8.301
0.413,0.494,-0.695,-10.986,-45.288,9.216
0.426,0.510,-0.689,-15.015,-44.189,6.287
0.447,0.491,-0.703,-19.104,-41.565,0.488
0.485,0.455,-0.733,-22.278,-37.842,-3.967
0.477,0.424,-0.762,-24.597,-35.278,-7.080
0.499,0.404,-0.779,-25.879,-31.555,-7.690
0.527,0.379,-0.804,-25.146,-28.931,-7.019
0.526,0.354,-0.823,-23.010,-26.184,-5.737
0.532,0.329,-0.823,-20.020,-23.376,-4.028
0.521,0.325,-0.814,-16.785,-21.301,-2.258
0.501,0.341,-0.788,-14.160,-19.714,-0.977
0.472,0.362,-0.753,-13.000,-20.142,-0.305
0.442,0.379,-0.727,-14.221,-22.278,-0.793
0.448,0.387,-0.716,-16.235,-24.780,-2.014
0.457,0.380,-0.725,-17.029,-28.320,-2.869
0.457,0.378,-0.728,-17.639,-31.677,-3.845
0.479,0.387,-0.737,-18.127,-32.532,-4.089
0.515,0.386,-0.746,-17.883,-31.006,-4.089
0.529,0.380,-0.759,-16.846,-29.175,-4.456
0.533,0.370,-0.767,-15.930,-26.611,-4.578
0.537,0.359,-0.763,-15.198,-23.499,-4.028
0.525,0.353,-0.756,-13.855,-21.790,-2.991
0.502,0.344,-0.741,-12.573,-21.912,-1.465
0.474,0.345,-0.706,-12.573,-23.621,0.610
0.473,0.360,-0.663,-14.221,-26.794,0.854
0.492,0.383,-0.654,-16.663,-31.311,-1.282
0.515,0.380,-0.667,-18.860,-36.255,-3.540
0.557,0.364,-0.695,-20.264,-38.818,-5.249
0.602,0.336,-0.738,-20.630,-38.757,-6.836
0.637,0.307,-0.777,-19.714,-37.170,-7.690
0.661,0.290,-0.799,-18.066,-34.058,-7.446
1.944,-0.300,-0.982,20.752,33.752,-20.081
2.101,-0.350,-1.089,28.137,38.757,-19.653
2.192,-0.420,-1.171,36.926,46.021,-14.526
2.226,-0.520,-1.198,45.532,57.129,-3.540
2.228,-0.620,-1.195,53.467,69.336,11.108
2.128,-0.664,-1.174,64.392,79.468,27.893
1.943,-0.681,-1.111,78.491,87.036,46.021
1.722,-0.644,-0.985,93.323,95.276,64.087
1.409,-0.505,-0.833,104.248,104.492,79.407
1.085,-0.393,-0.667,108.643,116.089,86.914
0.848,-0.317,-0.526,109.619,131.592,84.229
0.679,-0.253,-0.404,110.901,147.522,75.012
0.516,-0.194,-0.365,112.976,158.875,64.758
0.345,-0.111,-0.354,118.347,164.978,53.345
0.175,0.062,-0.300,125.610,167.236,41.321
0.003,0.311,-0.208,132.263,167.664,31.677
-0.157,0.547,-0.098,137.695,169.006,24.475
-0.332,0.779,0.033,139.709,173.218,20.630
-0.550,0.957,0.142,133.911,178.955,20.935
-0.923,1.079,0.258,119.690,181.946,23.010
-1.320,1.193,0.401,96.436,177.185,21.851
-1.615,1.274,0.496,63.538,163.086,15.137
-1.754,1.340,0.552,34.607,140.808,3.784
-1.706,1.379,0.527,23.315,113.770,-9.888
-1.498,1.341,0.443,19.958,83.618,-26.855
-1.129,1.211,0.282,17.639,54.626,-44.861
-0.680,1.021,0.088,8.057,29.541,-59.021
-0.434,0.852,-0.117,-7.141,12.756,-69.092
-0.008,0.636,-0.358,-17.883,8.789,-66.711
0.425,0.434,-0.533,-27.100,1.831,-58.167
0.697,0.301,-0.709,-31.738,-15.991,-48.279
0.842,0.249,-0.846,-29.480,-40.222,-38.147
0.916,0.257,-0.965,-21.301,-59.814,-28.503
0.962,0.276,-1.066,-12.085,-68.054,-17.578
0.973,0.309,-1.120,-9.583,-66.284,-7.996
0.961,0.349,-1.131,-11.902,-57.556,-2.258
0.925,0.370,-1.107,-13.367,-46.265,0.122
0.828,0.396,-1.065,-12.024,-34.241,-0.061
0.812,0.462,-1.047,-8.789,-19.958,-1.221
0.791,0.460,-1.005,-5.066,-12.817,-1.709
0.660,0.495,-0.963,-2.380,-13.672,-4.761
0.554,0.550,-0.929,-2.625,-6.592,-4.150
0.557,0.550,-0.891,-2.075,3.113,-2.136
0.559,0.505,-0.860,1.343,9.399,3.601
0.512,0.479,-0.842,3.113,8.789,9.399
0.483,0.487,-0.823,3.113,7.263,10.864
0.482,0.508,-0.809,4.028,7.568,10.559
0.478,0.512,-0.796,5.493,9.033,11.230
0.462,0.501,-0.782,6.165,10.925,11.475
0.429,0.496,-0.770,5.005,12.390,9.216
0.387,0.486,-0.752,3.357,12.695,5.432
0.372,0.487,-0.724,1.648,11.841,1.526
0.361,0.499,-0.706,-0.305,7.996,-0.671
0.362,0.510,-0.701,-2.197,3.174,-0.977
0.388,0.511,-0.705,-3.174,-0.549,-0.122
0.398,0.501,-0.718,-3.479,-3.784,1.282
0.405,0.483,-0.732,-3.357,-6.409,2.869
0.415,0.475,-0.745,-2.197,-8.240,5.188
0.414,0.470,-0.743,-0.610,-9.644,8.179
0.393,0.476,-0.743,0.366,-10.925,11.597
0.377,0.488,-0.740,0.122,-10.742,13.611
0.369,0.496,-0.728,0.000,-9.521,14.099
0.358,0.503,-0.724,-0.916,-8.179,13.306
0.334,0.517,-0.725,-2.808,-7.019,10.925
0.329,0.510,-0.728,-5.859,-5.798,6.470
0.337,0.495,-0.736,-7.629,-5.371,1.831
0.349,0.481,-0.750,-8.423,-6.104,-1.099
0.354,0.479,-0.762,-8.728,-7.629,-1.831
0.361,0.483,-0.760,-8.240,-9.644,-1.160
0.367,0.488,-0.769,-6.653,-11.292,0.244
0.367,0.476,-0.771,-6.653,-11.475,2.258
0.367,0.470,-0.771,-7.263,-11.169,3.723
0.364,0.477,-0.768,-7.141,-10.803,4.700
0.356,0.490,-0.750,-7.202,-10.864,4.517
0.347,0.502,-0.734,-7.935,-11.780,3.601
0.340,0.506,-0.729,-9.155,-12.268,1.770
0.334,0.494,-0.728,-10.315,-12.512,0.244
0.335,0.472,-0.730,-10.925,-13.916,0.305
0.331,0.460,-0.728,-11.414,-16.602,1.526
0.339,0.449,-0.731,-11.536,-19.470,2.502
0.366,0.444,-0.739,-11.047,-21.179,2.258
0.389,0.460,-0.743,-10.681,-20.813,1.953
0.405,0.466,-0.744,-10.681,-19.104,1.221
0.414,0.473,-0.742,-11.475,-16.724,0.000
0.411,0.469,-0.746,-12.512,-14.099,-1.953
0.403,0.450,-0.748,-13.184,-11.963,-3.418
0.387,0.434,-0.741,-13.733,-11.047,-4.883
0.367,0.426,-0.738,-13.672,-11.719,-5.798
0.356,0.428,-0.720,-12.939,-13.611,-5.188
0.360,0.443,-0.700,-13.794,-16.296,-4.150
0.382,0.451,-0.699,-15.442,-19.104,-3.723
0.413,0.445,-0.699,-17.090,-21.851,-3.723
0.452,0.438,-0.720,-18.433,-22.827,-3.296
0.498,0.421,-0.755,-18.677,-21.912,-2.563
0.528,0.401,-0.784,-18.250,-20.630,-0.793
0.523,0.399,-0.799,-17.212,-19.226,2.563
0.492,0.397,-0.789,-16.235,-17.883,6.104
0.451,0.397,-0.769,-16.052,-16.296,7.751
0.420,0.397,-0.761,-14.832,-13.550,7.019
0.382,0.396,-0.730,-12.939,-10.498,4.639
0.350,0.403,-0.706,-12.634,-8.240,1.221
0.349,0.389,-0.699,-13.916,-7.324,-3.052
0.371,0.375,-0.707,-16.174,-8.362,-6.653
0.409,0.363,-0.723,-17.212,-11.658,-7.935
0.455,0.334,-0.743,-16.113,-16.418,-5.493
0.502,0.305,-0.772,-12.878,-20.020,-0.549
0.550,0.333,-0.810,-7.935,-20.996,7.141
0.589,0.342,-0.836,-2.258,-21.423,14.648
0.595,0.320,-0.821,3.296,-23.193,19.531
0.535,0.322,-0.789,7.812,-24.963,21.729
0.471,0.330,-0.762,11.719,-24.841,18.860
0.422,0.326,-0.751,15.869,-24.231,11.780
0.399,0.327,-0.721,18.677,-24.963,5.127
0.411,0.365,-0.693,18.616,-26.245,2.869
0.456,0.406,-0.683,15.686,-27.527,4.639
0.536,0.445,-0.680,11.475,-26.550,8.240
0.592,0.461,-0.711,7.446,-23.926,12.573
0.634,0.454,-0.750,3.540,-18.799,11.169
0.667,0.435,-0.784,1.160,-13.123,5.554
1.695,-0.208,-1.068,6.775,27.771,-17.639
1.897,-0.227,-1.166,9.521,27.161,-14.404
2.060,-0.246,-1.279,14.709,26.611,-8.179
2.095,-0.297,-1.391,22.278,26.062,0.488
2.006,-0.397,-1.412,30.701,31.433,13.916
1.897,-0.481,-1.353,34.851,43.152,28.870
1.773,-0.513,-1.277,38.086,57.190,42.358
1.627,-0.541,-1.120,46.143,68.481,54.443
1.466,-0.586,-0.972,53.772,75.745,63.171
1.348,-0.624,-0.900,60.730,83.313,67.261
1.203,-0.663,-0.843,68.909,88.806,70.923
1.034,-0.690,-0.848,81.116,95.520,75.500
0.835,-0.660,-0.815,98.267,107.056,78.003
0.594,-0.548,-0.716,113.159,120.178,79.590
0.328,-0.411,-0.582,123.413,133.057,78.918
0.071,-0.294,-0.428,131.897,143.555,72.388
-0.121,-0.095,-0.265,139.404,150.696,57.922
-0.180,0.229,-0.116,145.569,155.151,39.001
-0.211,0.611,0.033,151.245,157.959,22.339
-0.259,0.939,0.191,152.039,161.743,10.193
-0.325,1.190,0.300,141.602,167.114,1.831
-0.422,1.351,0.354,123.718,170.959,-4.089
-0.587,1.416,0.425,102.661,168.030,-7.446
-0.750,1.405,0.486,81.970,156.555,-4.211
-0.782,1.336,0.468,69.092,138.611,7.263
-0.782,1.209,0.394,63.049,115.784,24.048
-0.794,1.108,0.316,59.143,88.623,39.063
-0.841,1.073,0.259,52.124,61.646,46.021
-0.859,1.078,0.185,41.870,40.466,36.865
-0.771,1.052,0.087,28.137,31.128,11.658
-0.547,0.964,-0.092,19.287,26.794,-15.381
-0.234,0.796,-0.312,20.752,23.193,-35.217
0.108,0.605,-0.512,24.292,18.433,-42.969
0.371,0.481,-0.683,25.879,14.648,-38.513
0.495,0.422,-0.810,26.733,8.179,-26.978
0.511,0.423,-0.870,26.001,-1.709,-14.587
0.485,0.467,-0.877,22.339,-13.062,-7.263
0.469,0.523,-0.871,15.320,-21.118,-6.897
0.465,0.561,-0.872,6.531,-21.851,-11.353
0.499,0.556,-0.903,-0.671,-17.212,-19.165
0.555,0.531,-0.950,-3.662,-11.292,-24.353
0.593,0.520,-0.995,-3.235,-6.592,-25.696
0.591,0.520,-1.003,-0.427,-2.808,-22.095
0.560,0.536,-0.976,2.808,0.061,-13.550
0.506,0.575,-0.909,5.371,1.892,-3.174
0.434,0.631,-0.820,6.531,1.160,6.653
0.388,0.687,-0.744,6.714,-0.122,12.146
0.358,0.729,-0.710,6.714,-0.977,13.672
0.335,0.734,-0.690,6.104,-1.221,11.902
0.318,0.716,-0.683,4.028,-1.648,9.521
0.293,0.689,-0.680,0.854,-3.052,7.568
0.269,0.672,-0.667,-1.648,-5.493,5.737
0.253,0.678,-0.648,-2.869,-8.606,3.723
0.245,0.689,-0.631,-2.869,-10.925,2.808
0.251,0.686,-0.623,-3.418,-11.597,2.197
0.269,0.660,-0.624,-4.089,-11.230,1.587
0.287,0.634,-0.645,-4.517,-9.705,1.343
0.294,0.611,-0.655,-4.211,-8.362,2.136
0.279,0.595,-0.658,-5.066,-8.972,2.808
0.263,0.583,-0.662,-7.446,-11.963,2.869
0.267,0.575,-0.676,-9.155,-14.771,2.136
0.280,0.561,-0.690,-8.484,-16.418,0.916
0.301,0.553,-0.709,-7.080,-16.968,-0.610
0.315,0.547,-0.727,-6.348,-16.907,-1.526
0.333,0.540,-0.739,-5.920,-15.869,-1.343
0.337,0.541,-0.742,-5.310,-14.587,-0.427
0.339,0.547,-0.735,-4.761,-13.000,0.000
0.339,0.563,-0.722,-4.578,-12.024,-0.061
0.340,0.581,-0.710,-5.859,-11.902,-0.427
0.350,0.591,-0.696,-8.423,-11.597,-1.526
0.346,0.594,-0.698,-11.658,-11.353,-2.563
0.335,0.578,-0.715,-15.198,-11.230,-3.662
0.333,0.552,-0.734,-17.029,-11.658,-4.456
0.343,0.541,-0.746,-16.968,-12.512,-4.395
0.347,0.545,-0.737,-16.235,-14.038,-3.174
0.341,0.570,-0.715,-16.602,-14.954,-1.099
0.334,0.589,-0.713,-17.456,-14.038,0.488
0.338,0.569,-0.720,-17.883,-11.902,0.427
0.330,0.540,-0.730,-18.127,-10.254,-0.366
0.322,0.510,-0.741,-17.334,-10.193,-2.136
0.327,0.492,-0.751,-15.259,-10.376,-2.808
0.331,0.497,-0.747,-13.672,-11.230,-1.709
0.321,0.511,-0.736,-14.832,-13.000,-0.061
0.322,0.518,-0.729,-16.663,-14.587,-0.244
0.337,0.512,-0.731,-17.090,-15.259,-1.465
0.349,0.506,-0.734,-15.808,-15.930,-2.441
0.365,0.510,-0.738,-14.709,-16.296,-2.991
0.383,0.508,-0.757,-13.855,-15.442,-2.991
0.396,0.480,-0.779,-13.000,-14.099,-3.235
0.403,0.456,-0.802,-12.268,-13.489,-3.235
0.388,0.440,-0.812,-10.986,-13.611,-3.479
0.374,0.435,-0.813,-9.399,-13.733,-4.150
0.379,0.443,-0.806,-7.874,-13.245,-5.066
0.392,0.460,-0.800,-6.714,-12.390,-5.615
0.403,0.464,-0.795,-6.958,-11.963,-6.592
0.416,0.460,-0.795,-8.423,-11.475,-8.423
0.432,0.470,-0.800,-9.766,-10.681,-9.338
0.450,0.476,-0.798,-10.803,-10.742,-9.583
0.447,0.482,-0.798,-11.658,-11.597,-8.911
0.437,0.489,-0.787,-12.085,-12.268,-8.057
0.437,0.504,-0.778,-12.207,-12.268,-7.385
0.440,0.510,-0.772,-11.414,-12.085,-6.226
0.432,0.511,-0.765,-10.437,-12.634,-4.395
0.415,0.516,-0.753,-9.705,-13.916,-2.930
0.406,0.524,-0.739,-9.583,-15.198,-2.441
0.413,0.530,-0.729,-9.827,-16.052,-2.747
0.437,0.535,-0.728,-10.681,-16.235,-3.479
0.463,0.542,-0.736,-12.329,-15.259,-4.150
0.470,0.537,-0.750,-15.137,-13.428,-5.005
0.464,0.507,-0.757,-17.883,-11.230,-6.714
0.460,0.489,-0.769,-18.311,-9.094,-7.629
0.445,0.475,-0.773,-17.578,-8.240,-7.019
0.431,0.471,-0.776,-16.418,-8.606,-5.127
0.418,0.461,-0.757,-14.954,-10.559,-3.052
0.405,0.475,-0.736,-13.245,-13.916,-0.427
0.391,0.497,-0.719,-11.780,-17.273,2.258
0.378,0.505,-0.698,-11.475,-19.653,2.991
0.381,0.513,-0.677,-13.611,-19.470,1.892
0.394,0.529,-0.680,-17.273,-17.334,-0.916
1.620,-0.640,-1.549,-47.302,31.738,-50.964
1.990,-0.812,-1.761,-35.095,31.860,-40.955
2.284,-0.970,-1.941,-11.780,25.330,-25.085
2.446,-1.114,-2.108,15.076,15.991,-8.118
2.425,-1.230,-2.213,39.063,11.536,10.254
2.227,-1.286,-2.233,57.983,19.165,31.860
1.906,-1.263,-2.066,75.378,41.992,51.025
1.539,-1.109,-1.735,93.018,77.698,65.369
1.149,-0.951,-1.337,110.229,114.441,72.327
0.803,-0.802,-1.005,123.962,145.081,71.838
0.513,-0.688,-0.765,137.146,161.438,67.017
0.285,-0.559,-0.579,155.151,160.706,60.669
0.115,-0.363,-0.393,174.988,148.804,55.725
-0.039,-0.174,-0.258,190.735,133.850,53.650
-0.161,-0.001,-0.141,199.097,123.047,48.279
-0.225,0.221,-0.006,199.524,114.868,36.011
-0.284,0.452,0.118,195.801,105.164,20.630
-0.330,0.623,0.276,195.557,97.229,7.324
-0.364,0.862,0.470,192.993,92.896,0.916
-0.435,1.159,0.668,180.359,92.285,4.883
-0.532,1.456,0.853,154.358,96.802,11.108
-0.669,1.732,0.927,118.774,104.919,12.756
-0.801,1.815,0.873,84.656,112.305,6.653
-0.891,1.708,0.812,60.547,112.976,-7.446
-0.915,1.596,0.719,46.631,105.835,-20.142
-0.883,1.471,0.590,37.048,89.966,-25.696
-0.826,1.318,0.431,25.635,62.805,-29.114
-0.688,1.141,0.236,12.817,30.457,-33.081
-0.479,0.941,-0.002,1.892,-3.357,-32.532
-0.219,0.710,-0.237,-7.385,-32.776,-26.489
0.069,0.505,-0.496,-15.198,-50.171,-17.944
0.341,0.337,-0.721,-18.494,-54.871,-12.817
0.527,0.216,-0.906,-16.052,-56.213,-14.832
0.603,0.159,-1.045,-9.216,-57.556,-19.165
0.594,0.160,-1.113,-3.296,-56.763,-20.630
0.585,0.201,-1.131,1.160,-52.856,-18.738
0.613,0.276,-1.141,2.197,-46.448,-15.137
0.642,0.368,-1.159,0.488,-39.612,-10.498
0.652,0.416,-1.152,1.160,-32.166,-4.883
0.631,0.447,-1.104,3.723,-24.109,0.610
0.565,0.499,-1.024,5.249,-15.442,4.456
0.481,0.564,-0.946,5.737,-7.324,3.784
0.422,0.605,-0.865,5.676,-0.244,-1.343
0.399,0.640,-0.807,3.052,6.104,-9.949
0.354,0.663,-0.773,-0.549,10.193,-17.334
0.309,0.666,-0.759,-3.784,12.085,-20.874
0.310,0.645,-0.754,-6.348,11.658,-21.362
0.314,0.612,-0.760,-6.836,6.409,-17.822
0.329,0.595,-0.759,-7.202,-0.793,-9.583
0.337,0.583,-0.755,-7.568,-8.301,-1.038
0.352,0.577,-0.745,-6.775,-14.832,6.409
0.356,0.580,-0.738,-6.104,-18.799,12.207
0.352,0.583,-0.736,-5.310,-19.226,15.442
0.331,0.572,-0.741,-5.249,-17.944,16.541
0.332,0.564,-0.734,-5.981,-14.099,13.062
0.307,0.542,-0.730,-5.249,-10.254,6.592
0.270,0.517,-0.731,-3.479,-8.240,2.502
0.254,0.512,-0.728,-4.150,-9.460,1.892
0.259,0.525,-0.722,-6.042,-13.000,1.831
0.265,0.538,-0.722,-6.409,-16.357,2.014
0.276,0.545,-0.726,-5.310,-18.555,2.625
0.288,0.553,-0.739,-5.310,-19.531,3.906
0.304,0.550,-0.752,-6.531,-19.592,5.310
0.314,0.552,-0.764,-8.484,-18.188,7.080
0.330,0.552,-0.784,-9.216,-15.564,7.324
0.328,0.538,-0.783,-8.728,-13.062,6.409
0.326,0.528,-0.778,-8.301,-11.780,6.042
0.327,0.528,-0.774,-7.996,-11.597,5.432
0.343,0.529,-0.778,-7.446,-12.634,4.944
0.369,0.531,-0.778,-7.202,-14.404,5.737
0.388,0.536,-0.777,-7.446,-16.479,7.446
0.382,0.538,-0.783,-8.240,-17.578,8.240
0.368,0.522,-0.789,-8.179,-17.212,7.568
0.352,0.497,-0.792,-7.507,-16.907,6.592
0.332,0.476,-0.798,-6.531,-16.357,6.165
0.306,0.468,-0.788,-5.737,-15.747,5.615
0.295,0.476,-0.769,-5.066,-15.381,5.310
0.296,0.495,-0.750,-4.944,-15.503,4.333
0.312,0.504,-0.741,-5.432,-15.442,2.441
0.333,0.495,-0.748,-5.676,-14.893,-0.122
0.352,0.489,-0.756,-5.554,-13.855,-2.197
0.355,0.487,-0.757,-5.859,-13.611,-2.502
0.349,0.491,-0.751,-6.531,-13.977,-1.892
0.339,0.502,-0.745,-6.714,-13.916,-0.671
0.336,0.501,-0.740,-6.348,-13.367,0.061
0.335,0.490,-0.739,-5.249,-13.184,0.366
0.325,0.476,-0.742,-4.578,-13.550,0.122
0.310,0.461,-0.742,-4.456,-14.832,-0.671
0.289,0.453,-0.742,-4.517,-16.174,-1.343
0.285,0.444,-0.741,-4.700,-18.250,-2.747
0.308,0.442,-0.747,-4.456,-20.508,-3.845
0.320,0.444,-0.745,-4.211,-22.583,-4.517
0.322,0.452,-0.742,-5.493,-23.560,-6.653
0.341,0.454,-0.732,-5.615,-23.010,-10.315
0.365,0.456,-0.728,-4.944,-22.949,-13.428
0.382,0.475,-0.734,-5.554,-23.560,-15.198
0.406,0.485,-0.745,-6.958,-22.827,-15.930
0.421,0.474,-0.754,-9.277,-21.790,-15.381
0.428,0.464,-0.757,-11.292,-21.667,-14.771
0.428,0.447,-0.757,-11.841,-22.339,-13.855
0.427,0.439,-0.753,-11.536,-23.193,-12.817
0.427,0.451,-0.745,-11.414,-23.804,-11.475
0.430,0.471,-0.730,-11.536,-23.926,-10.071
0.425,0.479,-0.710,-12.268,-24.536,-9.033
0.422,0.484,-0.685,-13.916,-25.391,-8.057
0.413,0.490,-0.677,-15.991,-26.672,-7.874
0.434,0.493,-0.677,-18.066,-26.306,-9.460
0.461,0.477,-0.679,-20.325,-26.062,-9.705
0.475,0.455,-0.690,-23.132,-27.161,-9.338
0.485,0.439,-0.698,-26.001,-28.259,-9.460
0.503,0.429,-0.710,-27.954,-27.283,-8.972
0.521,0.410,-0.728,-29.053,-25.391,-8.545
0.530,0.385,-0.739,-30.090,-23.804,-9.338
0.536,0.362,-0.747,-29.724,-22.034,-10.132
0.548,0.353,-0.760,-28.015,-20.752,-10.376
0.557,0.363,-0.753,-26.367,-20.630,-9.155
0.556,0.384,-0.738,-25.269,-20.813,-6.409
0.554,0.393,-0.737,-25.208,-20.630,-5.066
0.550,0.376,-0.739,-25.330,-19.958,-5.310
1.464,-0.273,-1.608,-1.526,4.150,-13.611
1.687,-0.425,-1.808,5.676,-2.808,-1.282
1.838,-0.614,-2.012,16.602,-5.493,17.334
1.887,-0.801,-2.147,33.386,-1.099,39.001
1.770,-0.898,-2.142,50.232,8.484,56.702
1.513,-0.861,-1.941,67.749,22.339,65.491
1.249,-0.741,-1.662,85.205,38.757,68.115
1.069,-0.667,-1.476,98.755,56.702,66.589
0.970,-0.626,-1.315,108.582,71.472,61.035
0.833,-0.560,-1.186,120.178,80.261,54.443
0.646,-0.471,-1.015,134.827,85.510,51.208
0.484,-0.309,-0.776,149.292,90.637,54.016
0.346,-0.117,-0.537,159.058,96.313,61.584
0.198,0.038,-0.361,162.415,101.135,64.453
0.084,0.160,-0.239,160.156,106.445,56.641
0.073,0.314,-0.114,157.227,114.441,43.396
0.080,0.487,0.022,153.870,123.352,32.349
0.054,0.661,0.171,151.794,130.798,25.696
-0.048,0.822,0.327,151.123,135.193,24.963
-0.239,0.959,0.501,147.339,135.559,29.419
-0.456,1.112,0.659,134.644,132.935,36.255
-0.689,1.267,0.813,114.868,128.845,41.992
-0.958,1.450,0.937,91.370,124.329,49.316
-1.273,1.600,1.045,65.552,113.403,54.504
-1.506,1.647,1.015,40.405,93.811,48.340
-1.529,1.569,0.926,16.785,68.054,30.029
-1.330,1.419,0.729,6.348,36.926,10.437
-0.987,1.183,0.427,7.874,4.028,-3.540
-0.544,0.915,0.099,12.634,-19.714,-15.198
-0.101,0.719,-0.187,5.981,-31.921,-26.184
0.221,0.584,-0.454,0.488,-39.246,-32.593
0.393,0.488,-0.712,1.282,-45.227,-35.461
0.488,0.400,-0.902,5.859,-49.866,-39.673
0.543,0.325,-1.055,8.545,-50.476,-43.823
0.564,0.288,-1.154,8.667,-45.898,-42.480
0.587,0.301,-1.205,9.277,-38.025,-35.278
0.591,0.353,-1.165,9.033,-29.053,-27.283
0.582,0.452,-1.081,9.155,-22.400,-20.508
0.534,0.586,-0.999,12.207,-17.273,-14.526
0.476,0.696,-0.933,12.939,-10.620,-10.803
0.446,0.745,-0.882,9.766,-3.479,-12.085
0.412,0.754,-0.828,7.324,0.305,-14.526
0.369,0.771,-0.776,5.737,2.563,-15.320
0.346,0.784,-0.737,5.310,4.272,-14.648
0.339,0.784,-0.710,5.615,5.005,-12.512
0.335,0.781,-0.689,5.493,4.395,-9.155
0.346,0.781,-0.672,4.944,3.723,-4.822
0.338,0.786,-0.655,3.967,2.930,-0.854
0.323,0.782,-0.638,2.625,2.625,1.099
0.314,0.766,-0.638,1.160,3.601,1.221
0.275,0.726,-0.651,-0.549,4.700,1.221
0.231,0.678,-0.663,-1.099,4.150,0.854
0.206,0.649,-0.668,-0.244,1.831,2.014
0.211,0.651,-0.676,0.366,-1.465,4.517
0.240,0.655,-0.682,0.793,-4.578,7.324
0.251,0.664,-0.681,1.587,-7.629,9.094
0.254,0.672,-0.679,2.441,-9.766,9.338
0.266,0.673,-0.679,3.113,-10.498,9.644
0.285,0.666,-0.684,3.845,-9.949,10.803
0.281,0.668,-0.672,4.211,-9.766,12.207
0.254,0.691,-0.652,3.662,-10.193,13.367
0.219,0.715,-0.626,2.441,-10.010,13.672
0.199,0.738,-0.601,0.854,-9.033,13.184
0.182,0.760,-0.584,-1.038,-8.606,12.634
0.163,0.763,-0.574,-2.502,-9.216,12.146
0.144,0.751,-0.571,-3.052,-10.315,11.353
0.125,0.741,-0.570,-3.296,-11.719,10.986
0.122,0.738,-0.575,-4.211,-12.756,10.925
0.126,0.730,-0.573,-4.517,-13.550,10.071
0.135,0.723,-0.567,-3.479,-14.526,9.033
0.149,0.719,-0.566,-2.808,-15.869,9.399
0.165,0.711,-0.565,-2.747,-17.212,11.047
0.169,0.714,-0.560,-3.235,-18.127,13.489
0.166,0.723,-0.563,-4.028,-18.921,14.709
0.169,0.714,-0.575,-4.822,-18.921,12.695
0.169,0.681,-0.593,-4.517,-18.005,8.606
0.165,0.635,-0.607,-2.563,-16.968,5.005
0.165,0.612,-0.602,0.366,-15.869,4.028
0.169,0.633,-0.600,3.052,-15.015,5.737
0.192,0.636,-0.603,4.761,-13.855,5.920
0.206,0.638,-0.600,5.615,-10.986,4.700
0.216,0.664,-0.604,3.967,-7.141,3.845
0.252,0.672,-0.624,0.671,-2.869,2.502
0.308,0.651,-0.648,-0.916,1.465,1.648
0.337,0.619,-0.682,0.671,4.639,2.258
0.304,0.584,-0.685,3.784,5.371,5.981
0.249,0.575,-0.674,3.845,5.005,14.526
0.217,0.576,-0.656,0.854,5.615,25.085
0.185,0.597,-0.632,-3.845,6.592,33.508
0.164,0.631,-0.616,-7.568,7.812,37.598
0.167,0.643,-0.627,-8.850,9.216,37.109
0.204,0.617,-0.658,-8.545,9.277,32.898
0.239,0.585,-0.687,-5.615,7.690,27.527
0.310,0.574,-0.716,-1.709,7.385,23.193
0.346,0.580,-0.734,1.526,7.996,23.560
0.312,0.601,-0.703,1.404,7.874,25.879
0.256,0.649,-0.667,-1.892,8.972,24.597
0.152,0.689,-0.643,-5.737,10.742,21.301
0.044,0.676,-0.610,-10.132,9.644,15.869
0.045,0.665,-0.614,-13.550,7.202,9.644
0.128,0.673,-0.644,-15.015,4.089,6.592
0.172,0.669,-0.670,-16.235,-0.427,7.019
0.201,0.645,-0.698,-19.653,-4.150,8.118
0.269,0.622,-0.740,-23.254,-4.639,9.460
0.345,0.600,-0.778,-23.437,-2.380,10.254
0.379,0.587,-0.804,-22.034,0.427,8.179
0.367,0.561,-0.810,-20.447,5.005,3.174
0.299,0.551,-0.795,-19.958,11.414,-1.038
0.179,0.569,-0.759,-22.705,16.052,-2.686
0.078,0.611,-0.725,-26.306,15.869,-3.540
0.007,0.660,-0.714,-28.198,10.010,-5.310
0.020,0.676,-0.739,-30.518,1.404,-8.911
0.097,0.646,-0.779,-33.875,-9.094,-11.169
0.172,0.625,-0.799,-38.147,-22.949,-8.606
0.250,0.629,-0.814,-41.931,-35.889,-3.845
0.333,0.615,-0.845,-44.067,-43.518,-0.549
0.387,0.555,-0.861,-45.349,-45.593,-0.366
0.411,0.505,-0.872,-45.776,-43.579,-2.258
0.406,0.478,-0.894,-45.593,-36.987,-3.906
1.205,0.010,-1.606,-31.494,17.273,-43.213
1.432,-0.194,-1.867,-19.226,17.456,-50.110
1.593,-0.430,-2.092,7.446,15.747,-55.359
1.709,-0.645,-2.244,43.274,15.259,-45.837
1.729,-0.710,-2.248,74.036,14.465,-17.700
1.690,-0.665,-2.174,90.881,12.207,12.939
1.690,-0.621,-2.040,93.262,14.282,32.166
1.706,-0.581,-1.897,91.431,25.330,40.222
1.717,-0.561,-1.763,94.482,40.405,43.579
1.801,-0.638,-1.717,103.394,59.265,44.495
1.772,-0.776,-1.662,118.652,78.979,48.035
1.510,-0.804,-1.534,135.681,95.276,58.411
1.122,-0.761,-1.346,151.306,111.511,72.021
0.735,-0.643,-1.083,163.574,126.343,88.135
0.369,-0.447,-0.715,176.147,136.292,107.117
0.051,-0.169,-0.339,192.932,137.939,122.986
-0.217,0.104,0.060,210.693,127.014,133.728
-0.394,0.400,0.455,223.328,106.201,142.700
-0.568,0.751,0.846,225.647,86.182,157.471
-0.740,1.086,1.219,214.783,78.064,175.781
-0.964,1.354,1.513,184.448,87.158,186.462
-1.224,1.502,1.718,137.146,109.253,176.270
-1.535,1.492,1.793,93.689,137.146,140.991
-1.904,1.297,1.772,67.139,165.283,88.745
-2.291,1.149,1.637,48.523,174.255,32.593
-2.523,1.109,1.393,27.344,155.884,-16.785
-2.380,1.072,1.054,10.681,121.887,-54.871
-1.897,0.919,0.657,9.888,79.529,-73.120
-1.242,0.679,0.295,11.414,35.583,-73.303
-0.567,0.479,-0.057,7.874,-0.549,-62.866
-0.053,0.365,-0.405,7.263,-30.884,-47.485
0.301,0.354,-0.679,5.554,-52.307,-36.255
0.500,0.401,-0.888,1.221,-61.096,-33.142
0.607,0.443,-1.024,-1.831,-57.312,-35.950
0.655,0.486,-1.113,-3.296,-44.556,-41.809
0.638,0.529,-1.167,-2.319,-31.006,-46.204
0.625,0.595,-1.178,-1.221,-17.761,-46.509
0.631,0.666,-1.159,-0.977,-7.507,-44.373
0.575,0.703,-1.111,2.625,-4.822,-35.645
0.489,0.754,-1.034,8.301,-6.348,-19.653
0.428,0.852,-0.929,14.038,-7.629,-3.479
0.395,0.962,-0.816,18.555,-8.728,6.897
0.362,1.042,-0.703,19.958,-7.996,12.024
0.325,1.093,-0.610,17.212,-4.028,15.137
0.284,1.107,-0.541,12.024,0.671,16.357
0.239,1.094,-0.503,6.287,6.409,15.930
0.191,1.064,-0.500,0.671,11.536,13.855
0.159,1.004,-0.520,-2.930,16.174,9.705
0.152,0.917,-0.556,-3.906,20.081,6.775
0.137,0.834,-0.587,-3.601,20.874,7.202
0.094,0.775,-0.598,-2.869,17.883,9.583
0.046,0.740,-0.604,-1.404,11.353,11.841
0.006,0.726,-0.599,1.221,3.845,13.428
0.001,0.728,-0.595,3.723,-1.892,15.503
0.013,0.728,-0.591,6.226,-5.310,17.151
0.027,0.738,-0.568,8.606,-8.423,18.677
0.021,0.781,-0.541,9.583,-11.719,19.775
0.010,0.826,-0.511,8.545,-14.038,20.569
-0.000,0.857,-0.485,6.958,-14.221,19.958
-0.036,0.891,-0.451,4.272,-13.855,17.883
-0.056,0.908,-0.452,1.404,-12.695,13.916
-0.049,0.891,-0.450,-2.869,-10.742,10.132
-0.043,0.862,-0.450,-4.883,-10.559,7.935
-0.072,0.841,-0.437,-4.944,-12.939,8.545
-0.111,0.845,-0.415,-5.676,-15.442,9.705
-0.152,0.868,-0.386,-7.812,-17.395,9.583
-0.166,0.878,-0.376,-10.559,-18.066,8.057
-0.176,0.855,-0.385,-12.207,-19.104,5.249
-0.177,0.836,-0.400,-13.977,-20.264,1.892
-0.182,0.819,-0.427,-16.785,-22.827,-0.793
-0.161,0.792,-0.462,-20.447,-25.818,-2.625
-0.097,0.754,-0.497,-22.644,-27.771,-4.333
-0.031,0.713,-0.530,-22.583,-29.419,-5.676
-0.006,0.682,-0.551,-20.874,-31.311,-5.737
-0.013,0.661,-0.548,-19.165,-33.325,-4.639
-0.042,0.655,-0.527,-18.738,-34.546,-3.479
-0.077,0.669,-0.499,-19.043,-35.583,-2.563
-0.111,0.697,-0.458,-19.958,-37.231,-1.953
-0.115,0.744,-0.424,-22.095,-39.368,-2.441
-0.079,0.796,-0.414,-26.978,-42.114,-4.639
-0.029,0.831,-0.435,-33.875,-45.105,-9.216
0.039,0.825,-0.493,-41.443,-47.485,-14.465
0.127,0.761,-0.573,-48.096,-48.645,-17.578
0.216,0.674,-0.656,-52.612,-48.767,-18.677
0.289,0.568,-0.730,-53.589,-47.607,-18.799
0.330,0.485,-0.784,-49.438,-45.227,-15.320
0.315,0.443,-0.800,-42.053,-42.847,-8.850
0.268,0.462,-0.788,-33.325,-41.138,-2.502
0.175,0.504,-0.728,-25.574,-41.931,3.357
0.087,0.593,-0.657,-20.996,-43.457,8.179
0.050,0.713,-0.612,-21.423,-45.654,7.935
0.035,0.773,-0.576,-27.344,-49.622,0.977
0.108,0.777,-0.603,-36.377,-51.208,-8.179
0.218,0.727,-0.646,-45.410,-50.354,-15.137
0.310,0.663,-0.709,-51.636,-48.157,-17.700
0.383,0.581,-0.781,-53.589,-45.349,-17.578
0.418,0.496,-0.825,-51.392,-42.542,-17.090
0.416,0.446,-0.845,-44.556,-40.405,-13.489
0.381,0.429,-0.838,-35.889,-40.771,-6.592
0.326,0.463,-0.794,-28.198,-42.542,-0.122
0.267,0.528,-0.724,-22.705,-45.166,4.578
0.210,0.625,-0.659,-20.447,-47.302,6.165
0.206,0.702,-0.625,-23.499,-47.424,3.662
0.235,0.739,-0.609,-34.180,-45.532,-3.113
0.290,0.720,-0.639,-47.485,-40.283,-13.855
0.339,0.641,-0.681,-57.190,-33.630,-26.123
0.392,0.559,-0.751,-62.927,-28.320,-34.485
0.436,0.450,-0.825,-63.721,-24.963,-36.743
0.442,0.345,-0.877,-59.265,-25.085,-33.264
0.425,0.272,-0.906,-50.598,-28.320,-25.085
0.368,0.256,-0.890,-40.588,-33.203,-13.672
0.310,0.290,-0.838,-30.212,-39.307,-3.723
0.250,0.381,-0.776,-19.714,-46.082,3.967
0.214,0.479,-0.711,-14.404,-52.979,6.531
0.246,0.550,-0.669,-17.639,-56.946,1.526
0.321,0.590,-0.679,-26.733,-55.115,-7.202
0.400,0.572,-0.709,-36.682,-50.354,-19.836
0.474,0.526,-0.763,-45.654,-43.579,-33.203
0.534,0.465,-0.825,-52.979,-36.743,-43.762
1.526,-0.129,-1.385,12.817,18.921,-13.550
1.639,-0.224,-1.480,19.897,22.888,-9.399
1.750,-0.339,-1.536,28.076,25.757,-1.770
1.776,-0.441,-1.625,39.673,26.978,6.226
1.766,-0.507,-1.636,55.725,32.104,14.343
1.690,-0.540,-1.607,73.364,42.480,21.729
1.559,-0.552,-1.489,91.858,59.265,29.053
1.364,-0.492,-1.251,107.422,79.651,37.903
1.144,-0.386,-1.024,118.774,98.389,48.157
0.907,-0.277,-0.836,124.023,113.831,55.237
0.666,-0.180,-0.646,122.498,125.610,56.091
0.523,-0.109,-0.541,117.310,135.437,49.011
0.424,-0.042,-0.479,117.065,143.188,36.133
0.336,0.010,-0.458,120.178,154.602,23.804
0.276,0.028,-0.467,126.099,163.025,10.620
0.247,0.042,-0.501,136.353,169.128,0.061
0.207,0.084,-0.486,148.376,171.631,-0.244
0.129,0.151,-0.397,163.330,171.509,13.367
0.038,0.224,-0.245,181.458,172.913,38.879
-0.021,0.313,-0.042,199.280,177.673,71.655
-0.149,0.395,0.179,214.111,179.443,105.469
-0.275,0.452,0.427,221.802,180.603,136.108
-0.446,0.509,0.608,217.896,183.411,163.757
-0.590,0.603,0.837,196.899,187.317,178.833
-0.768,0.753,0.992,172.241,185.852,178.772
-0.940,0.963,0.973,147.400,187.073,165.588
-1.052,1.214,0.937,105.530,190.552,142.822
-1.131,1.447,0.920,77.271,180.969,113.342
-1.190,1.647,0.760,71.533,164.307,78.979
-1.217,1.721,0.553,78.918,134.888,44.189
-1.209,1.687,0.349,90.393,93.811,13.916
-1.117,1.559,0.171,90.393,50.964,-7.324
-0.927,1.406,0.054,72.327,13.306,-15.747
-0.680,1.236,-0.054,44.373,-13.733,-12.573
-0.370,1.123,-0.155,17.761,-31.067,-6.348
-0.141,0.993,-0.272,-2.808,-35.828,-9.033
-0.038,0.825,-0.377,-16.113,-30.273,-15.747
0.066,0.719,-0.480,-14.648,-23.682,-14.832
0.107,0.698,-0.589,-6.653,-22.278,-12.878
0.131,0.732,-0.653,-4.395,-23.010,-10.254
0.118,0.755,-0.678,-6.348,-26.367,-5.859
0.085,0.775,-0.686,-8.911,-29.602,-2.258
0.048,0.778,-0.689,-10.437,-30.762,-0.732
0.025,0.772,-0.696,-10.376,-29.602,-0.305
0.016,0.769,-0.695,-9.644,-25.635,-0.793
0.013,0.767,-0.688,-8.423,-20.630,-1.343
0.007,0.773,-0.674,-6.714,-16.418,-2.136
-0.013,0.779,-0.658,-5.005,-13.855,-4.211
-0.033,0.782,-0.636,-3.479,-11.902,-6.592
-0.049,0.789,-0.611,-2.930,-10.803,-8.484
-0.066,0.813,-0.592,-3.296,-10.193,-8.606
-0.087,0.846,-0.578,-2.930,-10.742,-6.958
-0.083,0.874,-0.554,-2.869,-12.390,-4.761
-0.070,0.893,-0.528,-3.296,-14.404,-2.197
-0.063,0.911,-0.506,-4.395,-16.479,0.549
-0.068,0.920,-0.477,-7.324,-18.616,2.869
-0.084,0.923,-0.445,-10.986,-19.897,4.211
-0.103,0.916,-0.415,-14.954,-19.165,3.906
-0.131,0.902,-0.390,-19.226,-17.578,2.319
-0.161,0.890,-0.371,-23.376,-15.930,-0.061
-0.192,0.873,-0.365,-26.917,-14.648,-2.808
-0.228,0.857,-0.361,-29.175,-15.564,-5.249
-0.255,0.851,-0.364,-31.250,-17.883,-7.874
-0.256,0.842,-0.376,-32.532,-20.508,-9.888
-0.223,0.826,-0.391,-33.264,-22.522,-10.803
-0.189,0.803,-0.399,-33.997,-25.818,-10.498
-0.162,0.786,-0.404,-34.729,-31.250,-10.132
-0.144,0.782,-0.418,-34.546,-36.194,-8.362
-0.130,0.771,-0.431,-33.569,-40.527,-5.859
-0.119,0.750,-0.453,-32.288,-44.312,-3.662
-0.100,0.745,-0.475,-30.640,-48.218,-1.953
-0.077,0.751,-0.497,-28.137,-52.612,-0.244
-0.057,0.761,-0.514,-25.757,-57.373,1.160
-0.044,0.772,-0.534,-24.231,-62.195,2.991
-0.015,0.771,-0.556,-24.536,-65.552,5.310
0.011,0.763,-0.574,-26.001,-67.688,7.690
0.028,0.750,-0.590,-26.978,-69.092,9.644
0.067,0.722,-0.606,-26.917,-67.566,10.620
0.104,0.693,-0.619,-26.123,-63.965,11.841
0.112,0.682,-0.630,-25.452,-60.608,13.428
0.102,0.688,-0.637,-25.574,-55.725,13.794
0.098,0.683,-0.638,-25.818,-49.072,12.451
0.081,0.671,-0.636,-26.245,-42.725,10.315
0.056,0.678,-0.630,-28.870,-37.170,7.507
0.033,0.705,-0.628,-32.471,-32.837,3.601
0.002,0.737,-0.620,-36.377,-30.579,0.427
-0.017,0.750,-0.626,-41.199,-29.358,-2.319
-0.004,0.739,-0.641,-45.715,-28.687,-5.127
0.024,0.699,-0.665,-49.072,-29.724,-6.714
0.054,0.639,-0.691,-50.781,-31.860,-5.859
0.061,0.579,-0.715,-50.232,-34.912,-2.747
0.058,0.521,-0.732,-48.157,-37.598,1.038
0.052,0.490,-0.734,-44.861,-40.161,4.395
0.026,0.507,-0.735,-41.443,-43.335,7.141
0.001,0.531,-0.734,-38.330,-45.959,7.080
0.026,0.528,-0.728,-35.278,-46.265,2.991
0.057,0.557,-0.717,-34.424,-48.645,-1.160
0.066,0.620,-0.729,-36.682,-52.979,-2.625
0.080,0.620,-0.738,-39.917,-57.007,-4.639
0.114,0.582,-0.758,-42.053,-59.509,-7.507
0.169,0.539,-0.783,-44.006,-60.913,-9.705
0.212,0.498,-0.800,-45.471,-61.951,-10.132
0.240,0.475,-0.811,-45.044,-62.805,-9.155
0.256,0.470,-0.824,-43.762,-63.171,-7.141
0.259,0.475,-0.831,-42.419,-63.110,-6.104
0.262,0.495,-0.837,-40.344,-62.744,-6.958
0.271,0.514,-0.847,-39.185,-61.890,-10.193
0.286,0.516,-0.859,-39.001,-60.730,-14.648
0.300,0.514,-0.869,-39.612,-60.303,-19.470
0.311,0.520,-0.881,-41.382,-60.974,-23.682
0.325,0.502,-0.885,-43.518,-61.707,-27.466
0.342,0.476,-0.884,-43.884,-62.561,-30.334
0.345,0.463,-0.875,-43.152,-63.660,-31.921
0.340,0.460,-0.861,-42.542,-64.819,-32.227
0.330,0.469,-0.841,-41.809,-66.345,-31.860
0.327,0.482,-0.820,-41.687,-67.444,-31.799
0.346,0.510,-0.797,-41.626,-67.505,-32.837
0.334,0.539,-0.773,-41.931,-68.665,-35.400
0.364,0.550,-0.778,-43.274,-67.749,-37.781
1.278,-0.216,-1.278,-10.803,33.508,-36.926
1.369,-0.327,-1.307,-7.507,35.950,-37.903
1.451,-0.446,-1.354,-9.460,36.743,-36.316
1.538,-0.598,-1.430,-10.315,37.781,-33.325
1.603,-0.743,-1.458,-5.066,38.879,-25.513
1.627,-0.828,-1.472,3.845,38.269,-11.841
1.617,-0.892,-1.490,17.029,41.016,2.380
1.521,-0.920,-1.466,36.926,49.927,17.090
1.336,-0.840,-1.372,60.913,65.308,28.931
1.125,-0.713,-1.226,85.205,83.984,35.645
0.937,-0.548,-1.065,106.262,101.501,38.818
0.738,-0.377,-0.931,121.094,114.868,40.344
0.539,-0.216,-0.817,132.019,125.610,38.330
0.309,-0.058,-0.704,139.526,132.385,32.043
0.173,0.094,-0.632,143.677,141.052,21.912
0.153,0.216,-0.586,149.780,152.039,8.972
0.124,0.345,-0.524,160.583,156.067,-0.916
0.076,0.472,-0.432,170.349,154.724,-1.465
0.012,0.569,-0.341,178.345,152.100,10.376
-0.112,0.638,-0.226,182.495,150.940,32.593
-0.292,0.699,-0.069,178.894,150.208,57.373
-0.525,0.768,0.103,171.082,150.940,80.750
-0.783,0.897,0.288,162.170,147.400,99.304
-1.019,1.074,0.472,150.574,137.817,112.671
-1.167,1.254,0.596,135.437,125.610,114.746
-1.173,1.400,0.670,117.310,111.206,103.882
-1.080,1.508,0.673,95.398,96.741,80.627
-0.939,1.580,0.612,69.885,84.595,46.814
-0.710,1.558,0.480,43.823,79.834,8.118
-0.434,1.377,0.238,24.170,79.956,-29.480
-0.196,1.050,0.010,11.658,76.721,-60.974
-0.013,0.759,-0.232,4.089,69.214,-74.463
0.098,0.548,-0.463,3.967,55.786,-69.275
0.106,0.431,-0.652,9.033,35.645,-52.612
0.057,0.418,-0.768,14.221,12.329,-32.166
0.086,0.459,-0.857,16.663,-5.066,-15.381
0.177,0.488,-0.922,17.944,-16.418,-4.700
0.260,0.486,-0.975,17.273,-23.621,1.404
0.311,0.474,-1.011,17.090,-26.611,5.432
0.344,0.470,-1.034,18.921,-25.146,9.216
0.358,0.485,-1.037,20.630,-19.287,13.611
0.331,0.508,-1.017,23.254,-11.536,17.334
0.304,0.549,-0.986,26.794,-3.235,19.592
0.262,0.609,-0.938,30.334,4.028,20.508
0.197,0.678,-0.886,32.166,9.949,19.897
0.130,0.727,-0.845,32.532,14.343,16.357
0.085,0.749,-0.808,31.738,16.846,11.841
0.063,0.761,-0.782,30.273,16.602,10.254
0.053,0.761,-0.760,28.748,14.221,11.780
0.048,0.761,-0.736,27.771,10.315,14.587
0.054,0.760,-0.715,27.649,6.287,17.944
0.058,0.758,-0.703,28.503,2.808,22.400
0.055,0.754,-0.690,29.053,-0.183,26.062
0.047,0.764,-0.675,29.114,-2.197,28.259
0.028,0.777,-0.664,28.320,-2.991,28.625
0.018,0.782,-0.650,26.978,-2.136,27.710
0.008,0.797,-0.640,25.085,-0.793,25.208
-0.016,0.801,-0.632,22.766,-0.244,22.522
-0.042,0.800,-0.624,19.958,-0.183,20.874
-0.061,0.807,-0.618,17.273,-1.221,20.264
-0.064,0.811,-0.614,14.587,-2.197,19.653
-0.060,0.806,-0.610,12.329,-2.930,18.738
-0.054,0.798,-0.605,10.132,-4.333,17.700
-0.055,0.793,-0.606,7.690,-5.798,17.212
-0.060,0.770,-0.612,5.676,-6.592,16.602
-0.062,0.733,-0.613,4.333,-6.287,15.625
-0.068,0.704,-0.607,3.662,-5.127,15.442
-0.083,0.684,-0.596,4.089,-3.601,15.808
-0.106,0.678,-0.575,4.761,-2.563,16.418
-0.134,0.677,-0.549,5.493,-2.502,16.541
-0.172,0.693,-0.516,6.287,-3.906,16.602
-0.207,0.725,-0.491,6.287,-7.141,16.846
-0.223,0.745,-0.467,5.554,-10.803,16.479
-0.220,0.744,-0.441,4.089,-14.526,15.198
-0.203,0.744,-0.419,2.319,-17.944,14.282
-0.203,0.754,-0.399,0.305,-21.301,13.977
-0.208,0.754,-0.377,-2.075,-23.437,12.146
-0.187,0.735,-0.362,-5.249,-23.132,8.972
-0.179,0.725,-0.347,-8.362,-21.851,5.737
-0.201,0.744,-0.334,-11.780,-22.278,2.625
-0.229,0.751,-0.330,-16.174,-22.827,-2.441
-0.220,0.720,-0.341,-21.606,-21.179,-9.827
-0.197,0.693,-0.350,-27.100,-19.470,-17.761
-0.211,0.707,-0.370,-33.508,-20.752,-23.804
-0.215,0.689,-0.394,-40.894,-23.560,-29.663
-0.141,0.636,-0.418,-47.180,-25.391,-35.522
-0.073,0.604,-0.453,-51.819,-27.100,-36.743
-0.035,0.589,-0.480,-55.420,-30.457,-34.790
0.010,0.572,-0.512,-57.068,-32.166,-33.569
0.021,0.591,-0.536,-58.777,-35.034,-32.166
0.014,0.610,-0.568,-62.927,-38.818,-31.982
0.051,0.578,-0.599,-68.176,-41.077,-34.546
0.100,0.569,-0.629,-73.486,-43.640,-36.682
0.107,0.571,-0.674,-78.125,-47.546,-37.354
0.142,0.516,-0.719,-82.886,-50.659,-38.879
0.221,0.472,-0.759,-86.609,-52.185,-39.185
0.234,0.471,-0.786,-89.172,-57.678,-36.377
0.201,0.490,-0.807,-91.797,-65.491,-34.729
0.203,0.499,-0.826,-94.299,-70.801,-37.537
0.218,0.507,-0.833,-98.755,-75.500,-42.969
0.262,0.532,-0.821,-107.422,-80.017,-49.255
0.336,0.567,-0.832,-119.385,-82.947,-55.298
0.445,0.561,-0.854,-135.010,-84.106,-59.937
0.517,0.496,-0.881,-152.100,-84.595,-62.805
0.543,0.382,-0.917,-165.588,-84.778,-63.110
0.537,0.243,-0.958,-174.133,-83.801,-61.646
0.508,0.126,-1.001,-177.673,-82.214,-57.495
0.467,0.036,-1.030,-175.537,-82.092,-51.941
0.422,-0.013,-1.039,-168.823,-85.327,-45.288
0.398,-0.020,-1.036,-159.973,-91.980,-37.415
0.433,-0.051,-1.043,-149.658,-99.243,-29.053
0.512,-0.080,-1.045,-138.733,-104.187,-19.653
0.580,-0.063,-1.051,-128.479,-105.835,-9.277
0.574,-0.014,-1.088,-118.225,-102.295,-1.404
0.677,-0.029,-1.083,-108.032,-83.191,-2.869
0.772,-0.097,-1.157,-90.759,-59.875,-24.292
0.736,-0.192,-1.194,-75.012,-41.504,-25.146
0.671,-0.208,-1.212,-64.331,-28.748,-26.917
0.634,-0.168,-1.195,-52.917,-20.020,-32.410
1.243,-0.244,-1.440,-7.446,27.893,-13.000
1.439,-0.438,-1.619,-11.292,34.424,-21.301
1.561,-0.615,-1.845,-11.719,35.950,-26.306
1.706,-0.869,-2.003,-2.014,33.752,-26.184
1.805,-1.089,-2.097,20.264,29.907,-17.578
1.847,-1.186,-2.084,47.119,27.954,0.427
1.821,-1.168,-2.012,70.801,33.447,24.048
1.692,-1.130,-1.916,92.224,50.171,41.931
1.493,-0.998,-1.698,114.014,78.979,48.340
1.270,-0.774,-1.416,135.437,112.610,44.128
1.040,-0.595,-1.196,155.762,143.982,32.288
0.821,-0.454,-1.013,174.866,167.969,18.860
0.624,-0.323,-0.854,193.176,178.589,7.935
0.435,-0.215,-0.721,211.853,176.025,1.221
0.249,-0.155,-0.578,229.492,172.729,0.793
0.138,-0.069,-0.385,246.033,168.457,2.869
0.164,0.078,-0.117,259.583,164.978,7.263
0.160,0.269,0.182,267.456,161.316,21.545
0.073,0.438,0.498,266.785,155.884,45.349
-0.109,0.657,0.849,256.287,152.039,77.637
-0.479,0.928,1.085,237.061,151.855,111.938
-0.846,0.999,1.204,213.989,157.837,132.324
-1.148,0.992,1.309,185.181,165.588,137.268
-1.287,1.112,1.378,146.851,177.124,127.075
-1.332,1.361,1.386,107.727,182.129,96.802
-1.422,1.536,1.172,81.543,169.128,50.232
-1.375,1.788,0.960,51.208,146.240,4.150
-1.242,1.744,0.700,33.386,103.943,-24.109
-0.994,1.378,0.323,42.236,52.734,-37.964
-0.664,1.029,0.034,33.203,11.353,-42.114
-0.373,0.784,-0.175,10.681,-14.587,-46.753
-0.081,0.582,-0.398,1.343,-28.015,-53.406
0.118,0.461,-0.577,-1.526,-32.715,-58.167
0.212,0.434,-0.719,-0.916,-34.973,-58.777
0.211,0.454,-0.816,4.639,-37.476,-53.467
0.169,0.513,-0.875,9.827,-41.443,-43.762
0.149,0.577,-0.895,9.460,-44.800,-34.241
0.158,0.641,-0.878,4.822,-45.959,-25.452
0.164,0.705,-0.847,0.061,-46.143,-17.090
0.173,0.742,-0.800,-1.099,-44.739,-10.681
0.191,0.772,-0.740,1.160,-41.504,-6.287
0.203,0.813,-0.678,4.639,-37.231,-3.357
0.204,0.848,-0.614,8.789,-33.081,-2.319
0.184,0.871,-0.557,13.855,-28.870,-1.099
0.144,0.888,-0.495,17.029,-24.597,-0.122
0.071,0.913,-0.437,18.799,-19.653,0.488
-0.024,0.958,-0.380,18.799,-15.198,-0.122
-0.125,1.013,-0.339,14.343,-14.160,-1.953
-0.212,1.023,-0.324,5.859,-17.090,-3.784
-0.236,0.988,-0.305,-3.296,-22.827,-6.409
-0.213,0.960,-0.298,-11.536,-32.471,-7.874
-0.166,0.930,-0.295,-17.273,-44.189,-5.920
-0.109,0.889,-0.294,-21.179,-56.580,-1.221
-0.047,0.851,-0.285,-23.376,-67.932,5.615
0.020,0.837,-0.288,-23.743,-76.416,14.099
0.042,0.814,-0.310,-23.499,-81.848,21.912
0.074,0.807,-0.322,-24.658,-84.290,26.306
0.073,0.825,-0.349,-25.208,-85.327,23.926
0.099,0.825,-0.398,-25.696,-83.069,16.418
0.153,0.794,-0.455,-29.358,-78.247,6.958
0.207,0.743,-0.523,-32.471,-73.792,-1.831
0.251,0.674,-0.601,-34.668,-69.946,-7.324
0.281,0.590,-0.668,-36.316,-67.627,-8.911
0.305,0.555,-0.721,-36.316,-65.918,-5.554
0.310,0.512,-0.776,-34.119,-65.186,-1.648
0.322,0.453,-0.826,-28.625,-65.063,1.343
0.322,0.436,-0.847,-21.667,-67.322,6.409
0.298,0.506,-0.851,-17.334,-71.960,11.902
0.306,0.552,-0.862,-16.113,-73.914,12.634
0.355,0.543,-0.871,-16.968,-71.716,9.827
0.388,0.548,-0.883,-19.958,-68.604,8.179
0.400,0.543,-0.892,-24.231,-65.247,5.310
0.407,0.527,-0.889,-27.161,-60.730,0.244
0.415,0.525,-0.891,-30.640,-55.176,-4.150
0.399,0.525,-0.895,-34.424,-50.232,-8.240
0.390,0.500,-0.904,-36.987,-44.617,-12.512
0.374,0.467,-0.916,-37.720,-39.734,-16.418
0.356,0.430,-0.924,-36.804,-37.048,-18.860
0.342,0.425,-0.915,-34.058,-36.926,-17.822
0.338,0.457,-0.906,-31.128,-39.063,-14.404
0.374,0.472,-0.890,-28.625,-41.565,-11.108
0.410,0.507,-0.863,-26.794,-43.884,-7.446
0.428,0.560,-0.847,-27.954,-45.776,-4.028
0.447,0.554,-0.844,-31.311,-45.288,-3.418
0.476,0.524,-0.837,-33.264,-41.992,-6.409
0.463,0.501,-0.834,-31.799,-37.964,-10.803
0.433,0.484,-0.826,-29.602,-34.119,-14.221
0.407,0.483,-0.795,-27.771,-31.128,-15.564
0.377,0.511,-0.761,-26.306,-29.480,-14.465
0.343,0.542,-0.729,-25.635,-29.175,-12.634
0.321,0.571,-0.701,-26.794,-30.029,-12.268
0.318,0.598,-0.681,-29.968,-31.311,-13.367
0.323,0.616,-0.677,-35.095,-32.593,-15.503
0.354,0.617,-0.690,-41.931,-32.776,-17.700
0.365,0.570,-0.711,-48.218,-32.654,-22.644
0.389,0.518,-0.742,-51.697,-31.311,-29.175
0.447,0.478,-0.780,-53.284,-29.114,-34.119
0.415,0.438,-0.804,-52.917,-23.376,-34.546
0.514,0.416,-0.822,-49.744,-7.996,-38.086
0.525,0.377,-0.861,-43.823,-5.981,-35.461
0.514,0.436,-0.853,-41.809,-7.080,-32.227
0.502,0.487,-0.844,-41.870,-10.193,-29.053
0.491,0.519,-0.842,-38.513,-13.062,-27.527
0.484,0.547,-0.847,-36.743,-16.357,-28.687
0.496,0.556,-0.870,-37.292,-20.142,-30.334
0.531,0.545,-0.901,-38.635,-23.376,-30.334
0.589,0.519,-0.940,-40.649,-25.330,-28.809
0.653,0.489,-0.968,-40.100,-25.818,-27.100
0.738,0.470,-1.012,-36.377,-23.376,-24.780
0.789,0.456,-1.025,-30.212,-20.020,-22.095
0.805,0.440,-1.028,-23.926,-15.869,-17.883
0.785,0.426,-1.013,-17.029,-11.230,-13.367
0.734,0.423,-0.981,-10.742,-6.287,-9.094
0.682,0.435,-0.946,-4.700,-1.587,-5.371
0.626,0.447,-0.897,-0.488,2.380,-2.930
0.575,0.465,-0.847,0.854,5.005,0.000
0.526,0.487,-0.802,0.427,5.981,3.174
0.486,0.497,-0.767,-0.549,6.287,5.676
0.461,0.494,-0.739,-2.441,6.409,6.531
